[{"success":true,"timeout":false,"failed_images":[],"failed_audio":[],"failed_video":[],"trial_type":"preload","trial_index":0,"plugin_version":null,"time_elapsed":640},{"success":true,"rt":45,"trial_type":"fullscreen","trial_index":1,"plugin_version":null,"time_elapsed":1696},{"final_width_px":386,"scale_factor":1.1930977414188537,"trial_type":"resize","trial_index":2,"plugin_version":"2.0.0","time_elapsed":1746},{"view_history":[{"page_index":0,"viewing_time":114},{"page_index":1,"viewing_time":126},{"page_index":2,"viewing_time":122},{"page_index":3,"viewing_time":135},{"page_index":4,"viewing_time":123},{"page_index":5,"viewing_time":120}],"rt":738,"trial_type":"instructions","trial_index":3,"plugin_version":"2.0.0","time_elapsed":2486},{"rt":193,"response":{"Q0":"The number of people inside the virtual room"},"question_order":[0],"trial_type":"survey-multi-choice","trial_index":4,"plugin_version":"2.0.0","time_elapsed":2681},{"rt":195,"stimulus":"<b>Some tips</b><br><img src=\"../assets/instruction-media/tip.png\" alt='tip image'><br>Please keep your face at around 50cm from your screen during the experiment.<br>","response":0,"trial_type":"html-button-response","trial_index":6,"plugin_version":"2.0.0","time_elapsed":2879},{"rt":null,"stimulus":"+","response":null,"trial_type":"html-keyboard-response","trial_index":7,"plugin_version":null,"time_elapsed":3385},{"rt":null,"stimulus":"<img src='../assets/num-task-imgs/people/num-5-9.png' alt='task image'>","response":null,"trial_type":"html-keyboard-response","trial_index":8,"plugin_version":null,"time_elapsed":3643},{"rt":200,"response":{"num-input":"0"},"trial_type":"survey-html-form","trial_index":9,"plugin_version":null,"time_elapsed":3847},{"rt":null,"stimulus":"+","response":null,"trial_type":"html-keyboard-response","trial_index":10,"plugin_version":null,"time_elapsed":4360},{"rt":null,"stimulus":"<img src='../assets/num-task-imgs/people/num-6-2.png' alt='task image'>","response":null,"trial_type":"html-keyboard-response","trial_index":11,"plugin_version":null,"time_elapsed":4616},{"rt":220,"response":{"num-input":"1"},"trial_type":"survey-html-form","trial_index":12,"plugin_version":null,"time_elapsed":4838},{"rt":null,"stimulus":"+","response":null,"trial_type":"html-keyboard-response","trial_index":13,"plugin_version":null,"time_elapsed":5346},{"rt":null,"stimulus":"<img src='../assets/num-task-imgs/people/num-8-6.png' alt='task image'>","response":null,"trial_type":"html-keyboard-response","trial_index":14,"plugin_version":null,"time_elapsed":5600},{"rt":208,"response":{"num-input":"2"},"trial_type":"survey-html-form","trial_index":15,"plugin_version":null,"time_elapsed":5813},{"rt":null,"stimulus":"+","response":null,"trial_type":"html-keyboard-response","trial_index":16,"plugin_version":null,"time_elapsed":6316},{"rt":null,"stimulus":"<img src='../assets/num-task-imgs/people/num-7-3.png' alt='task image'>","response":null,"trial_type":"html-keyboard-response","trial_index":17,"plugin_version":null,"time_elapsed":6573},{"rt":209,"response":{"num-input":"3"},"trial_type":"survey-html-form","trial_index":18,"plugin_version":null,"time_elapsed":6785},{"rt":null,"stimulus":"+","response":null,"trial_type":"html-keyboard-response","trial_index":19,"plugin_version":null,"time_elapsed":7295},{"rt":null,"stimulus":"<img src='../assets/num-task-imgs/people/num-5-6.png' alt='task image'>","response":null,"trial_type":"html-keyboard-response","trial_index":20,"plugin_version":null,"time_elapsed":7549},{"rt":222,"response":{"num-input":"4"},"trial_type":"survey-html-form","trial_index":21,"plugin_version":null,"time_elapsed":7776},{"rt":null,"stimulus":"+","response":null,"trial_type":"html-keyboard-response","trial_index":22,"plugin_version":null,"time_elapsed":8278},{"rt":null,"stimulus":"<img src='../assets/num-task-imgs/people/num-7-9.png' alt='task image'>","response":null,"trial_type":"html-keyboard-response","trial_index":23,"plugin_version":null,"time_elapsed":8533},{"rt":241,"response":{"num-input":"5"},"trial_type":"survey-html-form","trial_index":24,"plugin_version":null,"time_elapsed":8777},{"rt":null,"stimulus":"+","response":null,"trial_type":"html-keyboard-response","trial_index":25,"plugin_version":null,"time_elapsed":9280},{"rt":null,"stimulus":"<img src='../assets/num-task-imgs/people/num-8-9.png' alt='task image'>","response":null,"trial_type":"html-keyboard-response","trial_index":26,"plugin_version":null,"time_elapsed":9534},{"rt":211,"response":{"num-input":"6"},"trial_type":"survey-html-form","trial_index":27,"plugin_version":null,"time_elapsed":9751},{"rt":null,"stimulus":"+","response":null,"trial_type":"html-keyboard-response","trial_index":28,"plugin_version":null,"time_elapsed":10261},{"rt":null,"stimulus":"<img src='../assets/num-task-imgs/people/num-6-9.png' alt='task image'>","response":null,"trial_type":"html-keyboard-response","trial_index":29,"plugin_version":null,"time_elapsed":10525},{"rt":233,"response":{"num-input":"7"},"trial_type":"survey-html-form","trial_index":30,"plugin_version":null,"time_elapsed":10762},{"rt":null,"stimulus":"+","response":null,"trial_type":"html-keyboard-response","trial_index":31,"plugin_version":null,"time_elapsed":11265},{"rt":null,"stimulus":"<img src='../assets/num-task-imgs/people/num-6-3.png' alt='task image'>","response":null,"trial_type":"html-keyboard-response","trial_index":32,"plugin_version":null,"time_elapsed":11526},{"rt":219,"response":{"num-input":"8"},"trial_type":"survey-html-form","trial_index":33,"plugin_version":null,"time_elapsed":11747},{"rt":null,"stimulus":"+","response":null,"trial_type":"html-keyboard-response","trial_index":34,"plugin_version":null,"time_elapsed":12256},{"rt":null,"stimulus":"<img src='../assets/num-task-imgs/people/num-5-1.png' alt='task image'>","response":null,"trial_type":"html-keyboard-response","trial_index":35,"plugin_version":null,"time_elapsed":12517},{"rt":230,"response":{"num-input":"9"},"trial_type":"survey-html-form","trial_index":36,"plugin_version":null,"time_elapsed":12751},{"rt":null,"stimulus":"+","response":null,"trial_type":"html-keyboard-response","trial_index":37,"plugin_version":null,"time_elapsed":13257},{"rt":null,"stimulus":"<img src='../assets/num-task-imgs/people/num-7-7.png' alt='task image'>","response":null,"trial_type":"html-keyboard-response","trial_index":38,"plugin_version":null,"time_elapsed":13516},{"rt":234,"response":{"num-input":"10"},"trial_type":"survey-html-form","trial_index":39,"plugin_version":null,"time_elapsed":13754},{"rt":null,"stimulus":"+","response":null,"trial_type":"html-keyboard-response","trial_index":40,"plugin_version":null,"time_elapsed":14257},{"rt":null,"stimulus":"<img src='../assets/num-task-imgs/people/num-8-8.png' alt='task image'>","response":null,"trial_type":"html-keyboard-response","trial_index":41,"plugin_version":null,"time_elapsed":14512},{"rt":264,"response":{"num-input":"11"},"trial_type":"survey-html-form","trial_index":42,"plugin_version":null,"time_elapsed":14781},{"rt":null,"stimulus":"+","response":null,"trial_type":"html-keyboard-response","trial_index":43,"plugin_version":null,"time_elapsed":15288},{"rt":null,"stimulus":"<img src='../assets/num-task-imgs/people/num-7-5.png' alt='task image'>","response":null,"trial_type":"html-keyboard-response","trial_index":44,"plugin_version":null,"time_elapsed":15541},{"rt":278,"response":{"num-input":"12"},"trial_type":"survey-html-form","trial_index":45,"plugin_version":null,"time_elapsed":15821},{"rt":null,"stimulus":"+","response":null,"trial_type":"html-keyboard-response","trial_index":46,"plugin_version":null,"time_elapsed":16328},{"rt":null,"stimulus":"<img src='../assets/num-task-imgs/people/num-5-8.png' alt='task image'>","response":null,"trial_type":"html-keyboard-response","trial_index":47,"plugin_version":null,"time_elapsed":16580},{"rt":247,"response":{"num-input":"13"},"trial_type":"survey-html-form","trial_index":48,"plugin_version":null,"time_elapsed":16829},{"rt":null,"stimulus":"+","response":null,"trial_type":"html-keyboard-response","trial_index":49,"plugin_version":null,"time_elapsed":17334},{"rt":null,"stimulus":"<img src='../assets/num-task-imgs/people/num-6-0.png' alt='task image'>","response":null,"trial_type":"html-keyboard-response","trial_index":50,"plugin_version":null,"time_elapsed":17597},{"rt":264,"response":{"num-input":"14"},"trial_type":"survey-html-form","trial_index":51,"plugin_version":null,"time_elapsed":17865},{"rt":null,"stimulus":"+","response":null,"trial_type":"html-keyboard-response","trial_index":52,"plugin_version":null,"time_elapsed":18458},{"rt":null,"stimulus":"<img src='../assets/num-task-imgs/people/num-8-0.png' alt='task image'>","response":null,"trial_type":"html-keyboard-response","trial_index":53,"plugin_version":null,"time_elapsed":18720},{"rt":202,"response":{"num-input":"15"},"trial_type":"survey-html-form","trial_index":54,"plugin_version":null,"time_elapsed":18922},{"rt":null,"stimulus":"+","response":null,"trial_type":"html-keyboard-response","trial_index":55,"plugin_version":null,"time_elapsed":19434},{"rt":null,"stimulus":"<img src='../assets/num-task-imgs/people/num-5-7.png' alt='task image'>","response":null,"trial_type":"html-keyboard-response","trial_index":56,"plugin_version":null,"time_elapsed":19692},{"rt":255,"response":{"num-input":"16"},"trial_type":"survey-html-form","trial_index":57,"plugin_version":null,"time_elapsed":19951},{"rt":null,"stimulus":"+","response":null,"trial_type":"html-keyboard-response","trial_index":58,"plugin_version":null,"time_elapsed":20467},{"rt":null,"stimulus":"<img src='../assets/num-task-imgs/people/num-8-5.png' alt='task image'>","response":null,"trial_type":"html-keyboard-response","trial_index":59,"plugin_version":null,"time_elapsed":20722},{"rt":278,"response":{"num-input":"17"},"trial_type":"survey-html-form","trial_index":60,"plugin_version":null,"time_elapsed":21002},{"rt":null,"stimulus":"+","response":null,"trial_type":"html-keyboard-response","trial_index":61,"plugin_version":null,"time_elapsed":21505},{"rt":null,"stimulus":"<img src='../assets/num-task-imgs/people/num-7-4.png' alt='task image'>","response":null,"trial_type":"html-keyboard-response","trial_index":62,"plugin_version":null,"time_elapsed":21759},{"rt":272,"response":{"num-input":"18"},"trial_type":"survey-html-form","trial_index":63,"plugin_version":null,"time_elapsed":22033},{"rt":null,"stimulus":"+","response":null,"trial_type":"html-keyboard-response","trial_index":64,"plugin_version":null,"time_elapsed":22542},{"rt":null,"stimulus":"<img src='../assets/num-task-imgs/people/num-6-4.png' alt='task image'>","response":null,"trial_type":"html-keyboard-response","trial_index":65,"plugin_version":null,"time_elapsed":22794},{"rt":441,"response":{"num-input":"19"},"trial_type":"survey-html-form","trial_index":66,"plugin_version":null,"time_elapsed":23238},{"view_history":[{"page_index":0,"viewing_time":256},{"page_index":1,"viewing_time":203},{"page_index":2,"viewing_time":219},{"page_index":3,"viewing_time":212},{"page_index":4,"viewing_time":213},{"page_index":5,"viewing_time":163}],"rt":1265,"trial_type":"instructions","trial_index":67,"plugin_version":"2.0.0","time_elapsed":24503},{"rt":390,"response":{"Q0":"The number of objects inside the virtual room"},"question_order":[0],"trial_type":"survey-multi-choice","trial_index":68,"plugin_version":"2.0.0","time_elapsed":24895},{"rt":210,"stimulus":"<b>Some tips</b><br><img src=\"../assets/instruction-media/tip.png\" alt='tip image'><br>Please keep your face at around 50cm from your screen during the experiment.<br>","response":0,"trial_type":"html-button-response","trial_index":70,"plugin_version":"2.0.0","time_elapsed":25106},{"rt":null,"stimulus":"+","response":null,"trial_type":"html-keyboard-response","trial_index":71,"plugin_version":null,"time_elapsed":25622},{"rt":null,"stimulus":"<img src='../assets/num-task-imgs/objects/num-5-6.png' alt='task image'>","response":null,"trial_type":"html-keyboard-response","trial_index":72,"plugin_version":null,"time_elapsed":25886},{"rt":353,"response":{"num-input":"0"},"trial_type":"survey-html-form","trial_index":73,"plugin_version":null,"time_elapsed":26241},{"rt":null,"stimulus":"+","response":null,"trial_type":"html-keyboard-response","trial_index":74,"plugin_version":null,"time_elapsed":26751},{"rt":null,"stimulus":"<img src='../assets/num-task-imgs/objects/num-6-7.png' alt='task image'>","response":null,"trial_type":"html-keyboard-response","trial_index":75,"plugin_version":null,"time_elapsed":27006},{"rt":286,"response":{"num-input":"1"},"trial_type":"survey-html-form","trial_index":76,"plugin_version":null,"time_elapsed":27294},{"rt":null,"stimulus":"+","response":null,"trial_type":"html-keyboard-response","trial_index":77,"plugin_version":null,"time_elapsed":27796},{"rt":null,"stimulus":"<img src='../assets/num-task-imgs/objects/num-7-9.png' alt='task image'>","response":null,"trial_type":"html-keyboard-response","trial_index":78,"plugin_version":null,"time_elapsed":28050},{"rt":348,"response":{"num-input":"2"},"trial_type":"survey-html-form","trial_index":79,"plugin_version":null,"time_elapsed":28401},{"rt":null,"stimulus":"+","response":null,"trial_type":"html-keyboard-response","trial_index":80,"plugin_version":null,"time_elapsed":28905},{"rt":null,"stimulus":"<img src='../assets/num-task-imgs/objects/num-8-3.png' alt='task image'>","response":null,"trial_type":"html-keyboard-response","trial_index":81,"plugin_version":null,"time_elapsed":29172},{"rt":371,"response":{"num-input":"3"},"trial_type":"survey-html-form","trial_index":82,"plugin_version":null,"time_elapsed":29545},{"rt":null,"stimulus":"+","response":null,"trial_type":"html-keyboard-response","trial_index":83,"plugin_version":null,"time_elapsed":30046},{"rt":null,"stimulus":"<img src='../assets/num-task-imgs/objects/num-6-5.png' alt='task image'>","response":null,"trial_type":"html-keyboard-response","trial_index":84,"plugin_version":null,"time_elapsed":30300},{"rt":344,"response":{"num-input":"4"},"trial_type":"survey-html-form","trial_index":85,"plugin_version":null,"time_elapsed":30648},{"rt":null,"stimulus":"+","response":null,"trial_type":"html-keyboard-response","trial_index":86,"plugin_version":null,"time_elapsed":31159},{"rt":null,"stimulus":"<img src='../assets/num-task-imgs/objects/num-5-4.png' alt='task image'>","response":null,"trial_type":"html-keyboard-response","trial_index":87,"plugin_version":null,"time_elapsed":31422},{"rt":304,"response":{"num-input":"5"},"trial_type":"survey-html-form","trial_index":88,"plugin_version":null,"time_elapsed":31729},{"rt":null,"stimulus":"+","response":null,"trial_type":"html-keyboard-response","trial_index":89,"plugin_version":null,"time_elapsed":32234},{"rt":null,"stimulus":"<img src='../assets/num-task-imgs/objects/num-8-5.png' alt='task image'>","response":null,"trial_type":"html-keyboard-response","trial_index":90,"plugin_version":null,"time_elapsed":32513},{"rt":316,"response":{"num-input":"6"},"trial_type":"survey-html-form","trial_index":91,"plugin_version":null,"time_elapsed":32831},{"rt":null,"stimulus":"+","response":null,"trial_type":"html-keyboard-response","trial_index":92,"plugin_version":null,"time_elapsed":33339},{"rt":null,"stimulus":"<img src='../assets/num-task-imgs/objects/num-7-7.png' alt='task image'>","response":null,"trial_type":"html-keyboard-response","trial_index":93,"plugin_version":null,"time_elapsed":33595},{"rt":400,"response":{"num-input":"7"},"trial_type":"survey-html-form","trial_index":94,"plugin_version":null,"time_elapsed":33998},{"rt":null,"stimulus":"+","response":null,"trial_type":"html-keyboard-response","trial_index":95,"plugin_version":null,"time_elapsed":34500},{"rt":null,"stimulus":"<img src='../assets/num-task-imgs/objects/num-8-4.png' alt='task image'>","response":null,"trial_type":"html-keyboard-response","trial_index":96,"plugin_version":null,"time_elapsed":34759},{"rt":346,"response":{"num-input":"8"},"trial_type":"survey-html-form","trial_index":97,"plugin_version":null,"time_elapsed":35109},{"rt":null,"stimulus":"+","response":null,"trial_type":"html-keyboard-response","trial_index":98,"plugin_version":null,"time_elapsed":35617},{"rt":null,"stimulus":"<img src='../assets/num-task-imgs/objects/num-7-2.png' alt='task image'>","response":null,"trial_type":"html-keyboard-response","trial_index":99,"plugin_version":null,"time_elapsed":35875},{"rt":321,"response":{"num-input":"9"},"trial_type":"survey-html-form","trial_index":100,"plugin_version":null,"time_elapsed":36199},{"rt":null,"stimulus":"+","response":null,"trial_type":"html-keyboard-response","trial_index":101,"plugin_version":null,"time_elapsed":36701},{"rt":null,"stimulus":"<img src='../assets/num-task-imgs/objects/num-5-8.png' alt='task image'>","response":null,"trial_type":"html-keyboard-response","trial_index":102,"plugin_version":null,"time_elapsed":36956},{"rt":406,"response":{"num-input":"10"},"trial_type":"survey-html-form","trial_index":103,"plugin_version":null,"time_elapsed":37365},{"rt":null,"stimulus":"+","response":null,"trial_type":"html-keyboard-response","trial_index":104,"plugin_version":null,"time_elapsed":37867},{"rt":null,"stimulus":"<img src='../assets/num-task-imgs/objects/num-6-2.png' alt='task image'>","response":null,"trial_type":"html-keyboard-response","trial_index":105,"plugin_version":null,"time_elapsed":38127},{"rt":373,"response":{"num-input":"11"},"trial_type":"survey-html-form","trial_index":106,"plugin_version":null,"time_elapsed":38502},{"rt":null,"stimulus":"+","response":null,"trial_type":"html-keyboard-response","trial_index":107,"plugin_version":null,"time_elapsed":39016},{"rt":null,"stimulus":"<img src='../assets/num-task-imgs/objects/num-6-0.png' alt='task image'>","response":null,"trial_type":"html-keyboard-response","trial_index":108,"plugin_version":null,"time_elapsed":39281},{"rt":443,"response":{"num-input":"12"},"trial_type":"survey-html-form","trial_index":109,"plugin_version":null,"time_elapsed":39727},{"rt":null,"stimulus":"+","response":null,"trial_type":"html-keyboard-response","trial_index":110,"plugin_version":null,"time_elapsed":40234},{"rt":null,"stimulus":"<img src='../assets/num-task-imgs/objects/num-5-2.png' alt='task image'>","response":null,"trial_type":"html-keyboard-response","trial_index":111,"plugin_version":null,"time_elapsed":40520},{"rt":396,"response":{"num-input":"13"},"trial_type":"survey-html-form","trial_index":112,"plugin_version":null,"time_elapsed":40919},{"rt":null,"stimulus":"+","response":null,"trial_type":"html-keyboard-response","trial_index":113,"plugin_version":null,"time_elapsed":41425},{"rt":null,"stimulus":"<img src='../assets/num-task-imgs/objects/num-8-8.png' alt='task image'>","response":null,"trial_type":"html-keyboard-response","trial_index":114,"plugin_version":null,"time_elapsed":41677},{"rt":411,"response":{"num-input":"14"},"trial_type":"survey-html-form","trial_index":115,"plugin_version":null,"time_elapsed":42091},{"rt":null,"stimulus":"+","response":null,"trial_type":"html-keyboard-response","trial_index":116,"plugin_version":null,"time_elapsed":42606},{"rt":null,"stimulus":"<img src='../assets/num-task-imgs/objects/num-7-5.png' alt='task image'>","response":null,"trial_type":"html-keyboard-response","trial_index":117,"plugin_version":null,"time_elapsed":42857},{"rt":532,"response":{"num-input":"15"},"trial_type":"survey-html-form","trial_index":118,"plugin_version":null,"time_elapsed":43391},{"rt":null,"stimulus":"+","response":null,"trial_type":"html-keyboard-response","trial_index":119,"plugin_version":null,"time_elapsed":43900},{"rt":null,"stimulus":"<img src='../assets/num-task-imgs/objects/num-8-7.png' alt='task image'>","response":null,"trial_type":"html-keyboard-response","trial_index":120,"plugin_version":null,"time_elapsed":44154},{"rt":368,"response":{"num-input":"16"},"trial_type":"survey-html-form","trial_index":121,"plugin_version":null,"time_elapsed":44526},{"rt":null,"stimulus":"+","response":null,"trial_type":"html-keyboard-response","trial_index":122,"plugin_version":null,"time_elapsed":45030},{"rt":null,"stimulus":"<img src='../assets/num-task-imgs/objects/num-6-4.png' alt='task image'>","response":null,"trial_type":"html-keyboard-response","trial_index":123,"plugin_version":null,"time_elapsed":45288},{"rt":476,"response":{"num-input":"17"},"trial_type":"survey-html-form","trial_index":124,"plugin_version":null,"time_elapsed":45768},{"rt":null,"stimulus":"+","response":null,"trial_type":"html-keyboard-response","trial_index":125,"plugin_version":null,"time_elapsed":46282},{"rt":null,"stimulus":"<img src='../assets/num-task-imgs/objects/num-5-7.png' alt='task image'>","response":null,"trial_type":"html-keyboard-response","trial_index":126,"plugin_version":null,"time_elapsed":46534},{"rt":442,"response":{"num-input":"18"},"trial_type":"survey-html-form","trial_index":127,"plugin_version":null,"time_elapsed":46978},{"rt":null,"stimulus":"+","response":null,"trial_type":"html-keyboard-response","trial_index":128,"plugin_version":null,"time_elapsed":47489},{"rt":null,"stimulus":"<img src='../assets/num-task-imgs/objects/num-7-1.png' alt='task image'>","response":null,"trial_type":"html-keyboard-response","trial_index":129,"plugin_version":null,"time_elapsed":47742},{"rt":399,"response":{"num-input":"19"},"trial_type":"survey-html-form","trial_index":130,"plugin_version":null,"time_elapsed":48143}]